File: data/NASDAQ/20211026/TGA.csv
Date,High,Low,Open,Close,Volume,Adj Close
2000-01-03,0.40625,0.3125,0.3125,0.390625,17500.0,0.328918
2000-01-11,0.3125,0.3125,0.3125,0.3125,3500.0,0.263134
2000-01-20,0.390625,0.3125,0.390625,0.3125,5800.0,0.263134
2000-01-28,0.40625,0.359375,0.375,0.40625,104800.0,0.342075
2000-02-07,0.5,0.4375,0.5,0.4375,33800.0,0.368388
2000-02-15,0.453125,0.40625,0.453125,0.40625,33600.0,0.342075
2000-02-24,0.34375,0.34375,0.34375,0.34375,25000.0,0.289448
2000-03-03,0.40625,0.328125,0.40625,0.40625,5800.0,0.342075
2000-03-13,0.515625,0.453125,0.453125,0.453125,54500.0,0.381545
2000-03-21,0.8125,0.59375,0.8125,0.734375,196500.0,0.618366
2000-03-29,0.59375,0.59375,0.59375,0.59375,20000.0,0.499955
2000-04-06,0.6875,0.59375,0.65625,0.671875,148000.0,0.565739
2000-04-14,0.75,0.546875,0.71875,0.546875,166300.0,0.460485
2000-04-25,0.6875,0.625,0.625,0.6875,52500.0,0.578896
2000-05-03,0.5625,0.515625,0.5625,0.515625,11600.0,0.434172
2000-05-11,0.5625,0.5,0.5,0.5,74500.0,0.421015
2000-05-19,0.5625,0.5,0.5625,0.515625,23000.0,0.434172
2000-05-30,0.53125,0.421875,0.421875,0.515625,43600.0,0.434172
2000-06-07,0.4375,0.40625,0.421875,0.4375,33800.0,0.368388
2000-06-15,0.5,0.4375,0.5,0.484375,28800.0,0.407858
2000-06-23,0.484375,0.40625,0.484375,0.484375,51900.0,0.407858
2000-07-03,0.546875,0.484375,0.546875,0.5,26000.0,0.421015
2000-07-12,0.5,0.453125,0.484375,0.484375,159700.0,0.407858
2000-07-20,0.53125,0.46875,0.5,0.46875,74600.0,0.394701
2000-07-28,0.5,0.5,0.5,0.5,200.0,0.421015
2000-08-07,0.484375,0.453125,0.484375,0.484375,34600.0,0.407858
2000-08-15,0.515625,0.484375,0.515625,0.484375,131700.0,0.407858
2000-08-23,0.640625,0.546875,0.578125,0.640625,317900.0,0.539425
2000-08-31,0.703125,0.625,0.703125,0.671875,120200.0,0.565739
2000-09-11,0.625,0.625,0.625,0.625,12100.0,0.526269
2000-09-19,0.703125,0.65625,0.65625,0.6875,176800.0,0.578896
2000-09-27,0.65625,0.625,0.625,0.65625,19900.0,0.552582
2000-10-05,0.6875,0.609375,0.6875,0.625,80300.0,0.526269
2000-10-13,0.75,0.65625,0.75,0.71875,410000.0,0.605209
2000-10-23,1.03125,0.953125,0.953125,0.984375,164500.0,0.828873
2000-10-31,0.84375,0.796875,0.796875,0.84375,23800.0,0.710463
2000-11-08,0.796875,0.609375,0.78125,0.640625,283900.0,0.539425
2000-11-16,0.78125,0.6875,0.75,0.71875,42200.0,0.605209
2000-11-27,0.65625,0.625,0.625,0.65625,15800.0,0.552582
2000-12-05,0.546875,0.484375,0.546875,0.5,17900.0,0.421015
2000-12-13,0.484375,0.4375,0.4375,0.4375,70200.0,0.368388
2000-12-21,0.46875,0.4375,0.4375,0.46875,132500.0,0.394701
2001-01-02,0.46875,0.453125,0.453125,0.46875,62700.0,0.394701
2001-01-10,0.390625,0.359375,0.390625,0.359375,60500.0,0.302604
2001-01-19,0.40625,0.40625,0.40625,0.40625,15000.0,0.342075
2001-01-29,0.40625,0.359375,0.40625,0.40625,43000.0,0.342075
2001-02-06,0.421875,0.375,0.375,0.421875,46900.0,0.355231
2001-02-14,0.40625,0.390625,0.40625,0.390625,66000.0,0.328918
2001-02-23,0.453125,0.40625,0.40625,0.40625,33800.0,0.342075
2001-03-05,0.421875,0.421875,0.421875,0.421875,0.0,0.355231
2001-03-13,0.390625,0.359375,0.390625,0.390625,9600.0,0.328918
2001-03-21,0.3125,0.28125,0.3125,0.28125,29300.0,0.236821
2001-03-29,0.296875,0.28125,0.296875,0.28125,58300.0,0.236821
2001-04-06,0.3125,0.25,0.25,0.3125,51800.0,0.263134
2001-04-17,0.38,0.34,0.38,0.38,25000.0,0.319971
2001-04-25,0.38,0.34,0.34,0.38,21000.0,0.319971
2001-05-03,0.32,0.32,0.32,0.32,0.0,0.26945
2001-05-11,0.39,0.34,0.39,0.34,13000.0,0.28629
2001-05-21,0.44,0.36,0.38,0.44,143400.0,0.370493
2001-05-30,0.38,0.37,0.37,0.38,20100.0,0.319971
2001-06-07,0.37,0.33,0.33,0.33,46200.0,0.27787
2001-06-15,0.36,0.33,0.33,0.36,39500.0,0.303131
2001-06-25,0.33,0.32,0.32,0.32,34200.0,0.26945
2001-07-03,0.32,0.31,0.32,0.31,20000.0,0.261029
2001-07-12,0.27,0.27,0.27,0.27,100.0,0.227348
2001-07-20,0.31,0.27,0.31,0.31,26400.0,0.261029
2001-07-30,0.27,0.27,0.27,0.27,1800.0,0.227348
2001-08-07,0.28,0.28,0.28,0.28,0.0,0.235768
2001-08-15,0.28,0.27,0.28,0.27,20600.0,0.227348
2001-08-23,0.34,0.29,0.3,0.33,48000.0,0.27787
2001-08-31,0.29,0.26,0.28,0.29,70900.0,0.244189
2001-09-17,0.23,0.22,0.23,0.23,68900.0,0.193667
2001-09-25,0.22,0.19,0.22,0.19,18500.0,0.159986
2001-10-03,0.21,0.21,0.21,0.21,0.0,0.176826
2001-10-11,0.19,0.19,0.19,0.19,0.0,0.159986
2001-10-19,0.19,0.18,0.18,0.19,56000.0,0.159986
2001-10-29,0.2,0.17,0.2,0.2,18000.0,0.168406
2001-11-06,0.29,0.25,0.29,0.26,1600.0,0.218928
2001-11-14,0.25,0.25,0.25,0.25,10000.0,0.210507
2001-11-23,0.24,0.24,0.24,0.24,5300.0,0.202087
2001-12-03,0.36,0.31,0.36,0.31,60100.0,0.261029
2001-12-11,0.31,0.25,0.25,0.31,42900.0,0.261029
2001-12-19,0.3,0.29,0.29,0.29,55800.0,0.244189
2001-12-28,0.37,0.31,0.31,0.36,115100.0,0.303131
2002-01-08,0.49,0.43,0.47,0.43,111700.0,0.362073
2002-01-16,0.45,0.38,0.45,0.38,2600.0,0.319971
2002-01-25,0.4,0.36,0.36,0.4,6500.0,0.336812
2002-02-04,0.33,0.33,0.33,0.33,0.0,0.27787
2002-02-12,0.35,0.29,0.29,0.34,15000.0,0.28629
2002-02-21,0.32,0.3,0.3,0.31,60000.0,0.261029
2002-03-01,0.29,0.28,0.28,0.29,35000.0,0.244189
2002-03-11,0.34,0.28,0.3,0.34,77800.0,0.28629
2002-03-19,0.34,0.31,0.34,0.34,64600.0,0.28629
2002-03-27,0.35,0.35,0.35,0.35,200.0,0.29471
2002-04-05,0.39,0.34,0.38,0.39,122000.0,0.328392
2002-04-15,0.3,0.3,0.3,0.3,21400.0,0.252609
2002-04-23,0.36,0.36,0.36,0.36,0.0,0.303131
2002-05-01,0.32,0.3,0.3,0.32,10700.0,0.26945
2002-05-09,0.33,0.31,0.33,0.31,6800.0,0.261029
2002-05-17,0.39,0.37,0.37,0.39,37400.0,0.328392
2002-05-28,0.38,0.37,0.38,0.37,17000.0,0.311551
2002-06-05,0.39,0.35,0.36,0.36,31100.0,0.303131
2002-06-13,0.35,0.33,0.34,0.35,24500.0,0.29471
2002-06-21,0.37,0.37,0.37,0.37,0.0,0.311551
2002-07-01,0.39,0.3,0.39,0.33,56000.0,0.27787
2002-07-10,0.3,0.3,0.3,0.3,2000.0,0.252609
2002-07-18,0.35,0.35,0.35,0.35,0.0,0.29471
2002-07-26,0.3,0.27,0.27,0.3,90500.0,0.252609
2002-08-05,0.35,0.3,0.3,0.35,3100.0,0.29471
2002-08-13,0.33,0.3,0.33,0.3,25000.0,0.252609
2002-08-21,0.34,0.29,0.31,0.31,90000.0,0.261029
2002-08-29,0.33,0.27,0.27,0.3,21500.0,0.252609
2002-09-09,0.32,0.31,0.31,0.32,21000.0,0.26945
2002-09-17,0.27,0.27,0.27,0.27,800.0,0.227348
2002-09-25,0.36,0.33,0.36,0.36,73700.0,0.303131
2002-10-03,0.36,0.32,0.34,0.36,86000.0,0.303131
2002-10-11,0.37,0.3,0.37,0.32,69100.0,0.26945
2002-10-21,0.37,0.33,0.37,0.35,45600.0,0.29471
2002-10-29,0.32,0.32,0.32,0.32,67300.0,0.26945
2002-11-06,0.32,0.32,0.32,0.32,11000.0,0.26945
2002-11-14,0.35,0.35,0.35,0.35,1000.0,0.29471
2002-11-22,0.33,0.3,0.3,0.33,57100.0,0.27787
2002-12-03,0.31,0.26,0.28,0.31,94400.0,0.261029
2002-12-11,0.5,0.4,0.5,0.48,143900.0,0.404174
2002-12-19,0.39,0.37,0.37,0.38,17000.0,0.319971
2002-12-30,0.41,0.36,0.41,0.38,27700.0,0.319971
2003-01-08,0.41,0.38,0.39,0.39,63100.0,0.328392
2003-01-16,0.44,0.42,0.44,0.43,37400.0,0.362073
2003-01-27,0.46,0.38,0.46,0.38,207600.0,0.319971
2003-02-04,0.41,0.38,0.4,0.39,129600.0,0.328392
2003-02-12,0.4,0.38,0.39,0.38,44700.0,0.319971
2003-02-21,0.44,0.38,0.38,0.41,46700.0,0.345232
2003-03-03,0.46,0.42,0.42,0.42,12400.0,0.353653
2003-03-11,0.48,0.45,0.46,0.45,83200.0,0.378913
2003-03-19,0.47,0.45,0.47,0.45,25700.0,0.378913
2003-03-27,0.48,0.45,0.45,0.46,91000.0,0.387334
2003-04-04,0.48,0.47,0.47,0.47,97500.0,0.395754
2003-04-14,0.47,0.45,0.46,0.45,21800.0,0.378913
2003-04-23,0.48,0.46,0.46,0.48,5000.0,0.404174
2003-05-01,0.49,0.46,0.47,0.49,18900.0,0.412595
2003-05-09,0.5,0.48,0.5,0.5,106300.0,0.421015
2003-05-19,0.51,0.49,0.51,0.5,81900.0,0.421015
2003-05-28,0.52,0.49,0.5,0.5,77100.0,0.421015
2003-06-05,0.53,0.51,0.53,0.52,53000.0,0.437856
2003-06-13,0.54,0.49,0.49,0.54,35000.0,0.454696
2003-06-23,0.5,0.48,0.5,0.49,20700.0,0.412595
2003-07-01,0.49,0.48,0.49,0.48,3800.0,0.404174
2003-07-10,0.52,0.5,0.5,0.51,148600.0,0.429435
2003-07-18,0.52,0.49,0.49,0.52,5900.0,0.437856
2003-07-28,0.52,0.51,0.52,0.52,65300.0,0.437856
2003-08-05,0.66,0.54,0.57,0.65,480200.0,0.547319
2003-08-13,0.76,0.7,0.73,0.71,251600.0,0.597841
2003-08-21,0.72,0.68,0.69,0.7,387600.0,0.589421
2003-08-29,1.06,0.92,0.95,1.04,823900.0,0.875711
2003-09-09,1.03,0.98,1.03,1.0,65900.0,0.84203
2003-09-17,1.01,0.95,0.97,0.96,85900.0,0.808349
2003-09-25,1.0,0.9,1.0,0.95,58300.0,0.799928
2003-10-03,1.04,1.0,1.04,1.0,47200.0,0.84203
2003-10-13,1.25,1.1,1.1,1.19,448500.0,1.00202
2003-10-21,1.16,1.11,1.16,1.11,77800.0,0.934653
2003-10-29,1.13,1.1,1.13,1.12,58100.0,0.943074
2003-11-06,1.89,1.53,1.59,1.71,1369000.0,1.43987
2003-11-14,1.5,1.38,1.42,1.5,218400.0,1.26304
2003-11-24,1.72,1.66,1.69,1.66,160400.0,1.39777
2003-12-03,1.73,1.64,1.66,1.72,103000.0,1.44829
2003-12-11,2.05,1.84,2.05,1.94,414100.0,1.63354
2003-12-19,2.57,2.44,2.48,2.57,400200.0,2.16402
2003-12-30,2.66,2.53,2.57,2.54,268600.0,2.13876
2004-01-08,2.65,2.52,2.64,2.56,215100.0,2.1556
2004-01-16,2.99,2.75,2.99,2.93,663100.0,2.46715
2004-01-27,2.92,2.83,2.92,2.84,261700.0,2.39136
2004-02-04,2.45,2.16,2.45,2.16,277600.0,1.81878
2004-02-12,2.39,2.18,2.31,2.36,424000.0,1.98719
2004-02-23,2.39,2.3,2.31,2.39,254200.0,2.01245
2004-03-02,2.92,2.75,2.75,2.9,814800.0,2.44189
2004-03-10,2.7,2.56,2.61,2.64,268200.0,2.22296
2004-03-18,2.58,2.48,2.54,2.53,186300.0,2.13034
2004-03-26,2.6,2.45,2.45,2.58,348300.0,2.17244
2004-04-05,2.79,2.67,2.7,2.74,329900.0,2.30716
2004-04-14,2.7,2.55,2.65,2.64,280400.0,2.22296
2004-04-22,2.59,2.48,2.48,2.52,160500.0,2.12192
2004-04-30,2.44,2.31,2.39,2.39,179400.0,2.01245
2004-05-10,2.25,1.98,2.25,2.1,396700.0,1.76826
2004-05-18,2.35,2.2,2.27,2.2,186200.0,1.85247
2004-05-26,2.53,2.3,2.32,2.53,301600.0,2.13034
2004-06-04,2.4,2.33,2.33,2.36,27100.0,1.98719
2004-06-15,2.44,2.29,2.29,2.4,171700.0,2.02087
2004-06-23,2.73,2.46,2.51,2.71,561300.0,2.2819
2004-07-01,2.83,2.66,2.66,2.78,229900.0,2.34084
2004-07-12,2.85,2.6,2.84,2.66,353700.0,2.2398
2004-07-20,2.64,2.58,2.6,2.6,246500.0,2.18928
2004-07-28,2.56,2.46,2.56,2.5,271900.0,2.10507
2004-08-05,2.48,2.35,2.44,2.43,138000.0,2.04613
2004-08-13,2.41,2.36,2.38,2.39,163400.0,2.01245
2004-08-23,2.53,2.34,2.46,2.41,155400.0,2.02929
2004-08-31,2.4,2.32,2.35,2.34,31600.0,1.97035
2004-09-09,2.33,2.27,2.3,2.28,156100.0,1.91983
2004-09-17,2.54,2.35,2.35,2.47,317800.0,2.07981
2004-09-27,3.11,2.9,2.94,3.03,853200.0,2.55135
2004-10-05,3.81,3.3,3.3,3.81,831900.0,3.20813
2004-10-13,3.86,3.47,3.86,3.7,622600.0,3.11551
2004-10-21,4.24,3.86,3.87,4.22,731600.0,3.55337
2004-10-29,3.91,3.76,3.87,3.91,296700.0,3.29234
2004-11-08,3.99,3.88,3.9,3.94,236900.0,3.3176
2004-11-16,3.7,3.61,3.61,3.67,254700.0,3.09025
2004-11-24,4.31,4.19,4.25,4.3,326800.0,3.62073
2004-12-03,5.09,4.76,4.8,4.96,345000.0,4.17647
2004-12-13,4.86,4.72,4.84,4.76,238200.0,4.00806
2004-12-21,5.2,5.07,5.1,5.18,132800.0,4.36171
2004-12-30,5.12,4.95,5.06,5.08,106000.0,4.27751
2005-01-07,4.88,4.56,4.8,4.56,228900.0,3.83966
2005-01-18,6.11,5.51,5.85,5.8,1348500.0,4.88377
2005-01-26,5.94,5.85,5.94,5.9,262500.0,4.96798
2005-02-03,6.8,6.66,6.72,6.74,386600.0,5.67528
2005-02-11,6.65,6.5,6.57,6.62,206000.0,5.57424
2005-02-22,9.6,8.3,9.3,8.48,1893100.0,7.14041
2005-03-02,7.98,7.57,7.66,7.7,775800.0,6.48363
2005-03-10,7.28,6.1,7.28,6.29,1631900.0,5.29637
2005-03-18,6.85,6.5,6.59,6.85,686700.0,5.7679
2005-03-29,6.35,5.99,6.15,5.99,397500.0,5.04376
2005-04-06,6.61,6.19,6.23,6.48,362500.0,5.45635
2005-04-14,5.75,5.51,5.61,5.55,381100.0,4.67327
2005-04-22,5.89,5.6,5.6,5.72,791900.0,4.81641
2005-05-02,5.49,5.12,5.14,5.47,370100.0,4.6059
2005-05-10,5.72,5.43,5.45,5.5,277100.0,4.63116
2005-05-18,4.91,4.46,4.76,4.52,433100.0,3.80598
2005-05-26,5.0,4.56,4.56,4.98,461500.0,4.19331
2005-06-06,6.04,5.75,5.8,6.02,506900.0,5.06902
2005-06-14,6.55,6.1,6.52,6.28,530800.0,5.28795
2005-06-22,6.92,6.82,6.89,6.9,334800.0,5.81001
2005-06-30,6.67,6.42,6.42,6.61,258000.0,5.56582
2005-07-11,7.01,6.8,6.88,6.85,367500.0,5.7679
2005-07-19,6.39,6.24,6.39,6.28,318700.0,5.28795
2005-07-27,6.24,6.05,6.05,6.21,265200.0,5.22901
2005-08-04,6.47,6.31,6.42,6.33,288600.0,5.33005
2005-08-12,6.72,6.46,6.48,6.53,295400.0,5.49846
2005-08-22,6.44,6.27,6.33,6.4,332800.0,5.38899
2005-08-30,6.41,6.2,6.32,6.25,249300.0,5.26269
2005-09-08,6.19,6.03,6.15,6.06,200700.0,5.1027
2005-09-16,5.97,5.88,5.94,5.94,415700.0,5.00166
2005-09-26,6.46,6.2,6.31,6.45,272600.0,5.43109
2005-10-04,6.19,6.0,6.18,6.02,472300.0,5.06902
2005-10-12,5.99,5.52,5.99,5.54,522700.0,4.66485
2005-10-20,5.02,4.53,4.96,4.57,482200.0,3.84808
2005-10-28,4.8,4.6,4.77,4.76,211300.0,4.00806
2005-11-07,5.33,5.09,5.33,5.15,218600.0,4.33645
2005-11-15,5.16,4.9,4.97,5.04,281500.0,4.24383
2005-11-23,5.55,5.3,5.55,5.4,174000.0,4.54696
2005-12-02,5.35,5.16,5.26,5.18,292300.0,4.36171
2005-12-12,5.65,5.45,5.45,5.65,409600.0,4.75747
2005-12-20,5.62,5.39,5.39,5.53,327300.0,4.65642
2005-12-29,5.34,5.11,5.11,5.34,273200.0,4.49644
2006-01-09,5.15,5.0,5.15,5.05,312300.0,4.25225
2006-01-18,5.21,5.02,5.21,5.12,190600.0,4.31119
2006-01-26,5.65,5.6,5.6,5.6,221200.0,4.71537
2006-02-03,6.02,5.75,5.8,6.02,446400.0,5.06902
2006-02-13,5.75,5.38,5.72,5.38,475300.0,4.53012
2006-02-22,5.8,5.65,5.8,5.69,170200.0,4.79115
2006-03-02,6.1,5.61,5.62,6.09,454100.0,5.12796
2006-03-10,5.54,5.44,5.48,5.52,170900.0,4.64801
2006-03-20,5.56,5.4,5.51,5.48,249200.0,4.61432
2006-03-28,5.45,5.35,5.4,5.4,417500.0,4.54696
2006-04-05,5.37,5.25,5.25,5.33,204400.0,4.48802
2006-04-13,5.95,5.86,5.92,5.93,63500.0,4.99324
2006-04-24,6.11,6.0,6.05,6.04,222300.0,5.08586
2006-05-02,6.04,5.9,5.96,5.9,161700.0,4.96798
2006-05-10,5.89,5.69,5.89,5.81,157300.0,4.89219
2006-05-18,5.16,4.98,5.16,5.04,248100.0,4.24383
2006-05-26,5.2,5.07,5.11,5.12,101300.0,4.31119
2006-06-06,5.29,5.1,5.29,5.2,101900.0,4.37856
2006-06-14,4.57,4.13,4.3,4.51,286100.0,3.79756
2006-06-22,4.65,4.5,4.65,4.59,57300.0,3.86492
2006-06-30,4.9,4.65,4.65,4.85,145300.0,4.08384
2006-07-11,4.95,4.78,4.85,4.86,79200.0,4.09227
2006-07-19,4.64,4.5,4.61,4.57,112100.0,3.84808
2006-07-27,4.79,4.69,4.7,4.69,151500.0,3.94912
2006-08-04,4.89,4.78,4.78,4.86,147900.0,4.09227
2006-08-14,4.86,4.72,4.85,4.82,155300.0,4.05858
2006-08-22,4.85,4.8,4.85,4.85,113600.0,4.08384
2006-08-30,4.79,4.75,4.77,4.77,81900.0,4.01648
2006-09-08,5.05,4.8,5.04,4.89,157400.0,4.11753
2006-09-18,4.78,4.59,4.6,4.72,124700.0,3.97438
2006-09-26,4.6,4.51,4.55,4.56,90000.0,3.83966
2006-10-04,4.6,4.2,4.56,4.31,520900.0,3.62915
2006-10-12,4.75,4.66,4.73,4.72,67400.0,3.97438
2006-10-20,4.84,4.72,4.81,4.77,126700.0,4.01648
2006-10-30,4.79,4.66,4.78,4.7,101100.0,3.95754
2006-11-07,4.61,4.55,4.55,4.6,125000.0,3.87334
2006-11-15,5.0,4.82,4.82,4.96,233800.0,4.17647
2006-11-24,5.1,5.04,5.1,5.1,44400.0,4.29435
2006-12-04,5.2,5.07,5.17,5.08,130000.0,4.27751
2006-12-12,5.5,5.3,5.47,5.31,167700.0,4.47118
2006-12-20,5.23,5.04,5.23,5.06,163500.0,4.26067
2006-12-29,5.02,4.97,5.02,5.01,129900.0,4.21857
2007-01-10,4.83,4.71,4.81,4.71,115300.0,3.96596
2007-01-19,4.99,4.78,4.78,4.95,104300.0,4.16805
2007-01-29,4.93,4.84,4.91,4.87,109600.0,4.10069
2007-02-06,4.78,4.66,4.7,4.78,117400.0,4.0249
2007-02-14,4.75,4.51,4.64,4.55,131600.0,3.83124
2007-02-23,4.72,4.46,4.65,4.54,155000.0,3.82282
2007-03-05,4.15,4.05,4.15,4.08,180400.0,3.43548
2007-03-13,4.51,4.25,4.5,4.26,156600.0,3.58705
2007-03-21,3.89,3.77,3.86,3.86,218700.0,3.25024
2007-03-29,3.89,3.8,3.88,3.86,148500.0,3.25024
2007-04-09,4.0,3.9,4.0,3.9,79500.0,3.28392
2007-04-17,3.97,3.9,3.93,3.93,137800.0,3.30918
2007-04-25,4.4,4.26,4.28,4.28,229200.0,3.60389
2007-05-03,4.22,4.09,4.22,4.09,134600.0,3.4439
2007-05-11,4.21,4.02,4.04,4.16,216100.0,3.50284
2007-05-21,3.93,3.82,3.87,3.82,131800.0,3.21655
2007-05-30,3.94,3.84,3.84,3.93,76100.0,3.30918
2007-06-07,4.1,3.99,4.09,3.99,231800.0,3.3597
2007-06-15,3.97,3.89,3.93,3.91,124000.0,3.29234
2007-06-25,4.35,4.14,4.23,4.29,172900.0,3.61231
2007-07-03,4.5,4.43,4.5,4.44,98100.0,3.73861
2007-07-12,5.0,4.92,4.95,4.98,250900.0,4.19331
2007-07-20,5.45,5.24,5.39,5.33,392200.0,4.48802
2007-07-30,4.91,4.77,4.77,4.91,282900.0,4.13437
2007-08-07,4.02,3.82,4.02,3.87,450400.0,3.25866
2007-08-15,3.8,3.6,3.61,3.65,229300.0,3.07341
2007-08-23,4.09,3.94,3.94,4.07,204900.0,3.42706
2007-08-31,4.03,3.89,3.94,4.01,219700.0,3.37654
2007-09-11,4.4,4.23,4.4,4.35,79600.0,3.66283
2007-09-19,4.77,4.6,4.65,4.75,227000.0,3.99964
2007-09-27,5.29,5.04,5.2,5.17,811300.0,4.35329
2007-10-05,5.1,4.85,4.96,5.07,192300.0,4.26909
2007-10-15,5.18,5.05,5.09,5.16,212900.0,4.34487
2007-10-23,5.5,5.31,5.31,5.44,181800.0,4.58064
2007-10-31,5.75,5.54,5.55,5.74,349300.0,4.83325
2007-11-08,5.79,5.38,5.38,5.56,244200.0,4.68169
2007-11-16,5.35,5.22,5.33,5.32,153300.0,4.4796
2007-11-27,5.38,5.13,5.35,5.25,231700.0,4.42066
2007-12-05,5.2,5.04,5.1,5.12,162100.0,4.31119
2007-12-13,5.4,5.25,5.25,5.39,81000.0,4.53854
2007-12-21,5.11,4.96,5.11,5.08,226800.0,4.27751
2008-01-02,5.24,5.06,5.06,5.15,100500.0,4.33645
2008-01-10,5.39,5.09,5.39,5.19,157500.0,4.37013
2008-01-18,5.09,4.8,4.8,4.85,173200.0,4.08384
2008-01-29,4.8,4.7,4.7,4.77,46300.0,4.01648
2008-02-06,5.03,4.86,4.9,4.9,158200.0,4.12595
2008-02-14,5.55,5.15,5.43,5.27,380400.0,4.4375
2008-02-25,5.49,5.31,5.44,5.43,152300.0,4.57222
2008-03-04,5.51,5.16,5.48,5.31,311500.0,4.47118
2008-03-12,5.22,4.95,5.03,4.95,200200.0,4.16805
2008-03-20,4.35,4.2,4.35,4.26,175900.0,3.58705
2008-03-31,5.06,4.76,4.95,4.87,96900.0,4.10069
2008-04-08,4.67,4.55,4.67,4.6,107600.0,3.87334
2008-04-16,5.03,4.68,4.68,4.93,221900.0,4.15121
2008-04-24,4.82,4.72,4.76,4.74,55600.0,3.99122
2008-05-02,4.75,4.6,4.61,4.7,125500.0,3.95754
2008-05-12,4.97,4.83,4.97,4.88,157400.0,4.10911
2008-05-20,5.19,5.02,5.07,5.14,221900.0,4.32803
2008-05-29,5.18,5.03,5.18,5.05,181100.0,4.25225
2008-06-06,5.2,4.99,5.13,5.12,255600.0,4.31119
2008-06-16,5.29,5.15,5.25,5.16,141300.0,4.34487
2008-06-24,5.58,5.28,5.52,5.31,225400.0,4.47118
2008-07-02,5.1,4.92,5.0,5.0,271300.0,4.21015
2008-07-11,4.6,4.45,4.52,4.53,146400.0,3.8144
2008-07-21,4.45,4.25,4.36,4.44,421900.0,3.73861
2008-07-29,4.05,3.96,4.01,3.96,117500.0,3.33444
2008-08-06,4.03,3.85,3.94,4.03,128700.0,3.39338
2008-08-14,4.13,3.99,4.05,4.02,124100.0,3.38496
2008-08-22,4.12,3.97,4.12,4.04,84500.0,3.4018
2008-09-02,3.84,3.73,3.76,3.75,126600.0,3.15761
2008-09-10,3.45,3.26,3.38,3.35,226700.0,2.8208
2008-09-18,3.09,2.79,2.94,3.08,243900.0,2.59345
2008-09-26,3.04,2.95,3.01,3.01,78400.0,2.53451
2008-10-06,2.75,2.0,2.75,2.5,433200.0,2.10507
2008-10-14,2.18,1.8,1.9,2.07,417700.0,1.743
2008-10-22,2.04,1.79,2.04,1.81,79300.0,1.52407
2008-10-30,2.11,1.85,1.85,2.11,140900.0,1.77668
2008-11-07,2.57,2.4,2.4,2.55,123700.0,2.14718
2008-11-17,2.28,1.9,2.16,2.02,168200.0,1.7009
2008-11-25,1.86,1.77,1.8,1.84,63800.0,1.54933
2008-12-04,2.1,1.95,2.05,1.96,139000.0,1.65038
2008-12-12,2.29,2.0,2.05,2.23,81100.0,1.87773
2008-12-22,2.84,2.4,2.7,2.51,361200.0,2.11349
2008-12-31,2.54,2.36,2.37,2.47,142900.0,2.07981
2009-01-09,2.56,2.48,2.53,2.51,46700.0,2.11349
2009-01-20,2.4,2.25,2.4,2.25,85100.0,1.89457
2009-01-28,3.01,2.91,3.0,2.98,116300.0,2.50925
2009-02-05,2.83,2.7,2.83,2.77,67800.0,2.33242
2009-02-13,2.82,2.74,2.76,2.74,36000.0,2.30716
2009-02-24,2.53,2.39,2.4,2.42,113500.0,2.03771
2009-03-04,2.68,2.33,2.33,2.62,114700.0,2.20612
2009-03-12,2.8,2.63,2.78,2.76,181800.0,2.324
2009-03-20,2.78,2.67,2.75,2.71,147900.0,2.2819
2009-03-30,2.88,2.6,2.88,2.81,265000.0,2.3661
2009-04-07,2.44,2.36,2.44,2.39,129600.0,2.01245
2009-04-16,2.55,2.35,2.5,2.55,139000.0,2.14718
2009-04-24,2.49,2.36,2.41,2.43,163100.0,2.04613
2009-05-04,2.77,2.62,2.68,2.71,177800.0,2.2819
2009-05-12,2.8,2.68,2.8,2.7,226400.0,2.27348
2009-05-20,2.81,2.62,2.67,2.65,263000.0,2.23138
2009-05-29,2.69,2.6,2.63,2.69,111400.0,2.26506
2009-06-08,2.76,2.68,2.71,2.73,58000.0,2.29874
2009-06-16,2.76,2.66,2.75,2.68,104600.0,2.25664
2009-06-24,2.8,2.68,2.71,2.75,159700.0,2.31558
2009-07-02,2.67,2.62,2.62,2.63,28400.0,2.21454
2009-07-13,2.55,2.36,2.55,2.51,107900.0,2.11349
2009-07-21,2.92,2.82,2.9,2.9,285100.0,2.44189
2009-07-29,3.0,2.89,3.0,3.0,115000.0,2.52609
2009-08-06,3.21,2.92,3.12,3.16,341800.0,2.66081
2009-08-14,3.23,3.14,3.2,3.17,170400.0,2.66923
2009-08-24,3.29,3.21,3.21,3.28,133900.0,2.76186
2009-09-01,3.15,3.0,3.13,3.08,229500.0,2.59345
2009-09-10,3.5,3.36,3.41,3.45,127000.0,2.905
2009-09-18,3.77,3.5,3.64,3.73,296800.0,3.14077
2009-09-28,3.53,3.41,3.47,3.46,74400.0,2.91342
2009-10-06,3.89,3.66,3.66,3.81,147500.0,3.20813
2009-10-14,4.7,4.42,4.53,4.44,310500.0,3.73861
2009-10-22,4.57,4.35,4.57,4.51,108700.0,3.79756
2009-10-30,4.15,3.74,4.0,3.8,157800.0,3.19971
2009-11-09,3.76,3.55,3.71,3.64,243300.0,3.06499
2009-11-17,3.6,3.52,3.55,3.59,91800.0,3.02289
2009-11-25,3.89,3.66,3.66,3.82,323500.0,3.21655
2009-12-04,3.65,3.44,3.61,3.5,70700.0,2.9471
2009-12-14,3.32,3.25,3.32,3.31,102200.0,2.78712
2009-12-22,3.5,3.45,3.45,3.48,31100.0,2.93026
2009-12-31,3.42,3.32,3.36,3.33,44000.0,2.80396
2010-01-11,3.89,3.72,3.88,3.72,77700.0,3.13235
2010-01-20,3.58,3.52,3.54,3.54,35300.0,2.98079
2010-01-28,3.76,3.53,3.53,3.63,136300.0,3.05657
2010-02-05,3.65,3.52,3.63,3.64,57000.0,3.06499
2010-02-16,3.9,3.79,3.82,3.9,97200.0,3.28392
2010-02-24,3.98,3.81,3.9,3.92,57400.0,3.30076
2010-03-04,3.93,3.86,3.91,3.86,36300.0,3.25024
2010-03-12,4.46,4.31,4.33,4.37,163400.0,3.67967
2010-03-22,4.63,4.4,4.43,4.59,117200.0,3.86492
2010-03-30,5.45,5.37,5.37,5.44,316400.0,4.58064
2010-04-08,6.25,5.81,6.25,6.14,483200.0,5.17006
2010-04-16,6.73,6.43,6.67,6.63,253900.0,5.58266
2010-04-26,7.31,7.2,7.22,7.27,187600.0,6.12156
2010-05-04,7.47,7.2,7.44,7.43,214100.0,6.25628
2010-05-12,7.59,7.39,7.39,7.56,190000.0,6.36575
2010-05-20,7.06,6.56,7.05,6.65,328100.0,5.5995
2010-05-28,7.12,6.84,6.95,6.91,126300.0,5.81843
2010-06-08,7.6,7.26,7.39,7.57,164600.0,6.37417
2010-06-16,8.05,7.94,7.94,7.97,141400.0,6.71098
2010-06-24,7.56,7.3,7.49,7.33,199800.0,6.17208
2010-07-02,7.18,6.95,6.97,7.04,144600.0,5.92789
2010-07-13,7.66,7.48,7.52,7.6,143400.0,6.39943
2010-07-21,7.27,7.08,7.27,7.16,63300.0,6.02893
2010-07-29,7.54,7.33,7.46,7.4,119200.0,6.23102
2010-08-06,7.75,7.58,7.66,7.73,60200.0,6.50889
2010-08-16,7.43,7.35,7.38,7.41,62700.0,6.23944
2010-08-24,7.49,7.35,7.37,7.4,88900.0,6.23102
2010-09-01,7.34,7.16,7.23,7.34,92800.0,6.1805
2010-09-10,7.72,7.41,7.44,7.7,133800.0,6.48363
2010-09-20,8.76,7.96,8.06,8.75,762900.0,7.36776
2010-09-28,9.7,9.51,9.61,9.6,270200.0,8.08349
2010-10-06,9.88,9.71,9.88,9.76,113700.0,8.21821
2010-10-14,10.95,10.46,10.46,10.82,450400.0,9.11076
2010-10-22,10.69,10.22,10.6,10.38,145600.0,8.74027
2010-11-01,11.08,10.64,10.69,10.96,285400.0,9.22865
2010-11-09,15.47,14.78,15.2,14.89,1065600.0,12.5378
2010-11-17,14.5,13.69,13.7,14.3,374100.0,12.041
2010-11-26,16.8,16.34,16.34,16.63,459600.0,14.003
2010-12-06,19.77,18.83,18.88,19.38,1312500.0,16.3185
2010-12-14,17.14,14.96,16.96,15.1,2376400.0,12.7147
2010-12-22,15.81,15.14,15.14,15.79,660400.0,13.2957
2010-12-31,16.18,15.75,16.06,15.97,267200.0,13.4472
2011-01-10,15.16,14.93,15.13,15.03,433800.0,12.6557
2011-01-19,14.8,14.49,14.8,14.61,381900.0,12.3021
2011-01-27,14.05,13.11,14.0,13.44,1121900.0,11.3169
2011-02-04,13.57,13.23,13.3,13.53,536000.0,11.3927
2011-02-14,15.5,14.95,15.27,15.21,454600.0,12.8073
2011-02-23,13.77,13.41,13.76,13.72,435700.0,11.5527
2011-03-03,14.59,14.21,14.38,14.48,248100.0,12.1926
2011-03-11,13.82,12.94,13.59,13.37,588600.0,11.2579
2011-03-21,14.39,13.63,13.74,14.1,326700.0,11.8726
2011-03-29,14.97,14.56,14.78,14.83,217600.0,12.4873
2011-04-06,15.82,15.25,15.8,15.59,272400.0,13.1272
2011-04-14,14.49,14.02,14.07,14.32,159600.0,12.0579
2011-04-25,14.02,13.65,13.92,14.0,92800.0,11.7884
2011-05-03,14.32,13.22,14.31,13.48,213000.0,11.3506
2011-05-11,14.03,13.35,13.98,13.45,144400.0,11.3253
2011-05-19,13.22,12.79,12.97,12.89,66600.0,10.8538
2011-05-27,14.41,13.74,13.82,14.37,179500.0,12.1
2011-06-07,13.77,13.43,13.65,13.57,68500.0,11.4263
2011-06-15,13.1,12.25,12.74,12.49,200800.0,10.517
2011-06-23,11.35,10.51,10.94,11.32,309900.0,9.53178
2011-07-01,11.55,11.28,11.47,11.51,71600.0,9.69176
2011-07-12,12.08,11.67,11.83,11.86,80900.0,9.98647
2011-07-20,11.95,11.75,11.85,11.82,118100.0,9.95279
2011-07-28,11.4,11.0,11.11,11.07,50300.0,9.32127
2011-08-05,9.62,8.62,9.6,9.13,241600.0,7.68773
2011-08-15,9.97,9.43,9.46,9.96,116300.0,8.38662
2011-08-23,9.01,8.62,8.64,8.99,82100.0,7.56985
2011-08-31,9.82,9.52,9.62,9.72,101800.0,8.18453
2011-09-09,9.91,9.42,9.89,9.53,144500.0,8.02455
2011-09-19,10.37,9.86,10.09,10.07,102300.0,8.47924
2011-09-27,9.5,8.86,8.86,9.14,130000.0,7.69615
2011-10-05,8.01,7.41,7.41,7.96,110400.0,6.70256
2011-10-13,8.94,8.58,8.92,8.72,111700.0,7.3425
2011-10-21,9.67,9.29,9.39,9.52,51400.0,8.01612
2011-10-31,10.85,10.09,10.66,10.3,121400.0,8.67291
2011-11-08,10.28,9.81,10.22,10.2,272100.0,8.5887
2011-11-16,9.5,9.12,9.27,9.17,108100.0,7.72141
2011-11-25,7.57,7.31,7.4,7.4,77800.0,6.23102
2011-12-05,8.53,8.16,8.48,8.26,118000.0,6.95517
2011-12-13,7.59,6.87,7.56,7.01,270200.0,5.90263
2011-12-21,8.01,7.71,7.86,7.91,128500.0,6.66046
2011-12-30,7.92,7.77,7.8,7.9,54200.0,6.65204
2012-01-10,9.5,9.19,9.24,9.28,165700.0,7.81404
2012-01-19,9.39,8.9,8.97,9.21,151300.0,7.7551
2012-01-27,9.52,9.34,9.4,9.41,79900.0,7.9235
2012-02-06,10.19,9.91,10.07,10.18,86000.0,8.57186
2012-02-14,10.64,10.13,10.43,10.19,104900.0,8.58029
2012-02-23,10.78,10.41,10.46,10.75,60900.0,9.05182
2012-03-02,11.69,11.47,11.59,11.59,86100.0,9.75913
2012-03-12,11.73,11.46,11.72,11.6,84200.0,9.76755
2012-03-20,11.77,11.6,11.68,11.67,46700.0,9.82649
2012-03-28,12.5,12.25,12.37,12.33,145300.0,10.3822
2012-04-05,12.64,12.31,12.31,12.47,76300.0,10.5001
2012-04-16,13.37,12.65,13.37,12.76,193100.0,10.7443
2012-04-24,13.28,12.95,13.26,12.99,52400.0,10.938
2012-05-02,14.4,14.1,14.4,14.16,68700.0,11.9231
2012-05-10,12.01,11.65,11.8,11.83,104000.0,9.96121
2012-05-18,10.41,10.04,10.17,10.07,109000.0,8.47924
2012-05-29,11.18,10.5,10.63,10.54,89200.0,8.87499
2012-06-06,10.1,9.63,9.69,9.71,138500.0,8.17611
2012-06-14,10.07,9.52,9.86,9.59,193900.0,8.07507
2012-06-22,8.25,7.83,7.99,8.23,89800.0,6.9299
2012-07-02,9.05,8.64,8.95,8.8,59800.0,7.40986
2012-07-11,8.97,8.77,8.83,8.85,86200.0,7.45197
2012-07-19,9.13,8.9,8.94,8.93,63200.0,7.51933
2012-07-27,10.32,9.26,9.26,10.05,325200.0,8.4624
2012-08-06,9.45,9.25,9.27,9.44,39200.0,7.94876
2012-08-14,9.53,9.38,9.48,9.41,43100.0,7.9235
2012-08-22,10.87,10.69,10.79,10.81,81600.0,9.10234
2012-08-30,10.54,10.23,10.46,10.26,115000.0,8.63923
2012-09-10,12.14,11.7,11.93,11.73,130300.0,9.87701
2012-09-18,12.01,11.71,11.73,11.85,130000.0,9.97805
2012-09-26,10.56,10.17,10.56,10.34,131400.0,8.70659
2012-10-04,11.22,11.09,11.12,11.13,35000.0,9.37179
2012-10-12,11.36,11.08,11.11,11.25,46900.0,9.47284
2012-10-22,11.48,11.23,11.26,11.32,79900.0,9.53178
2012-11-01,11.22,10.77,10.78,11.01,36100.0,9.27075
2012-11-09,11.79,11.37,11.79,11.63,89300.0,9.79281
2012-11-19,11.43,10.81,10.89,11.26,75300.0,9.48126
2012-11-28,10.5,10.04,10.24,10.31,82500.0,8.68133
2012-12-06,10.15,9.65,10.09,9.84,117300.0,8.28557
2012-12-14,9.73,9.42,9.42,9.64,99800.0,8.11717
2012-12-24,9.68,9.58,9.58,9.62,32200.0,8.10033
2013-01-03,9.64,9.35,9.64,9.41,121400.0,7.9235
2013-01-11,9.5,8.66,9.45,8.98,337700.0,7.56143
2013-01-22,8.83,8.64,8.8,8.67,103400.0,7.3004
2013-01-30,8.56,8.33,8.45,8.44,52000.0,7.10673
2013-02-07,8.92,8.76,8.8,8.8,97600.0,7.40986
2013-02-15,8.41,8.12,8.29,8.2,111600.0,6.90464
2013-02-26,8.12,7.77,8.09,7.78,121800.0,6.55099
2013-03-06,8.65,8.47,8.49,8.55,78200.0,7.19936
2013-03-14,9.06,8.88,8.92,9.01,88500.0,7.58669
2013-03-22,8.86,8.67,8.81,8.68,46200.0,7.30882
2013-04-02,8.34,8.02,8.34,8.04,142800.0,6.76992
2013-04-10,7.79,7.55,7.61,7.66,96100.0,6.44995
2013-04-18,7.15,6.88,6.98,7.04,79300.0,5.92789
2013-04-26,8.11,7.78,8.11,7.93,51800.0,6.6773
2013-05-06,8.54,8.13,8.18,8.35,129200.0,7.03095
2013-05-14,8.02,7.88,8.02,7.97,46900.0,6.71098
2013-05-22,7.7,7.45,7.57,7.45,69800.0,6.27312
2013-05-31,7.63,7.32,7.59,7.37,63800.0,6.20576
2013-06-10,7.23,7.12,7.18,7.17,35900.0,6.03735
2013-06-18,7.11,7.05,7.1,7.06,38500.0,5.94473
2013-06-26,5.92,5.7,5.7,5.9,101200.0,4.96798
2013-07-05,6.31,6.06,6.31,6.1,61300.0,5.13638
2013-07-15,6.12,6.0,6.0,6.08,60500.0,5.11954
2013-07-23,6.31,6.13,6.18,6.2,31300.0,5.22059
2013-07-31,6.73,6.3,6.3,6.66,100300.0,5.60792
2013-08-08,7.04,6.89,7.0,7.0,65100.0,5.89421
2013-08-16,6.6,6.36,6.45,6.6,45600.0,5.5574
2013-08-26,7.13,6.92,7.02,6.95,56400.0,5.85211
2013-09-04,7.16,7.02,7.04,7.09,43300.0,5.96999
2013-09-12,7.47,7.31,7.36,7.33,42100.0,6.17208
2013-09-20,7.79,7.54,7.78,7.66,98800.0,6.44995
2013-09-30,7.95,7.75,7.82,7.86,181100.0,6.61835
2013-10-08,9.13,8.84,9.05,8.84,87000.0,7.44354
2013-10-16,9.08,8.93,8.95,9.02,88900.0,7.59511
2013-10-24,9.25,9.06,9.23,9.08,105000.0,7.64563
2013-11-01,9.06,8.83,9.05,8.87,81600.0,7.46881
2013-11-11,9.04,8.86,9.0,9.01,160800.0,7.58669
2013-11-19,8.79,8.55,8.55,8.67,113800.0,7.3004
2013-11-27,8.73,8.63,8.7,8.66,78000.0,7.29198
2013-12-06,9.29,9.06,9.22,9.16,75900.0,7.71299
2013-12-16,8.76,8.57,8.57,8.72,124700.0,7.3425
2013-12-24,8.39,8.13,8.35,8.37,144300.0,7.04779
2014-01-03,8.45,8.28,8.36,8.3,57700.0,6.98885
2014-01-13,8.25,8.03,8.04,8.2,220900.0,6.90464
2014-01-22,8.43,8.2,8.38,8.29,103800.0,6.98043
2014-01-30,7.6,7.32,7.6,7.43,201800.0,6.25628
2014-02-07,7.35,7.09,7.24,7.19,84300.0,6.05419
2014-02-18,7.38,7.25,7.32,7.28,95200.0,6.12998
2014-02-26,7.49,7.31,7.42,7.34,63400.0,6.1805
2014-03-06,7.96,7.7,7.78,7.82,107500.0,6.58467
2014-03-14,7.61,7.35,7.36,7.58,121500.0,6.38259
2014-03-24,7.7,7.26,7.41,7.69,256200.0,6.47521
2014-04-01,7.64,7.44,7.6,7.62,106200.0,6.41627
2014-04-09,7.62,7.42,7.43,7.55,67500.0,6.35733
2014-04-17,7.99,7.59,7.59,7.88,149400.0,6.6352
2014-04-28,7.91,7.8,7.91,7.86,105600.0,6.61835
2014-05-06,8.28,8.08,8.15,8.22,79500.0,6.92149
2014-05-14,6.74,6.58,6.69,6.62,70500.0,5.57424
2014-05-22,6.77,6.57,6.62,6.61,51800.0,5.65158
2014-06-02,7.0,6.87,6.87,6.98,269100.0,5.96793
2014-06-10,7.25,7.1,7.25,7.19,68900.0,6.14748
2014-06-18,7.22,7.11,7.17,7.11,61000.0,6.16434
2014-06-26,7.25,7.13,7.14,7.2,45700.0,6.24237
2014-07-07,7.43,7.05,7.2,7.38,268400.0,6.39843
2014-07-15,6.81,6.55,6.81,6.55,104700.0,5.67882
2014-07-23,6.79,6.64,6.73,6.72,134900.0,5.82621
2014-07-31,6.43,6.24,6.43,6.27,118900.0,5.43606
2014-08-08,6.42,6.09,6.16,6.37,158600.0,5.52276
2014-08-18,6.53,6.23,6.53,6.28,271800.0,5.44473
2014-08-26,6.84,6.64,6.64,6.7,184500.0,5.80887
2014-09-04,6.84,6.5,6.82,6.53,173200.0,5.66148
2014-09-12,6.33,6.2,6.21,6.29,108400.0,5.49661
2014-09-22,6.23,5.99,6.2,6.01,263600.0,5.25193
2014-09-30,6.25,5.98,6.21,6.08,62400.0,5.3131
2014-10-08,5.45,5.19,5.39,5.39,248900.0,4.71014
2014-10-16,5.11,4.7,4.82,5.06,214400.0,4.42176
2014-10-24,4.82,4.66,4.8,4.77,124900.0,4.16834
2014-11-03,4.36,4.17,4.36,4.18,194000.0,3.65276
2014-11-11,4.16,3.93,4.03,4.13,153200.0,3.60907
2014-11-19,3.91,3.71,3.9,3.73,229600.0,3.25952
2014-11-28,3.44,3.21,3.44,3.26,455400.0,2.8488
2014-12-08,3.34,3.03,3.34,3.17,846600.0,2.77015
2014-12-16,3.15,2.86,2.89,3.03,284400.0,2.69269
2014-12-24,3.68,3.48,3.55,3.57,83400.0,3.17258
2015-01-05,4.06,3.55,4.06,3.77,530100.0,3.35031
2015-01-13,3.02,2.83,2.95,2.88,398900.0,2.55939
2015-01-22,3.04,2.88,3.03,2.99,338600.0,2.65714
2015-01-30,2.95,2.71,2.75,2.91,286200.0,2.58605
2015-02-09,3.4,3.21,3.23,3.34,314100.0,2.96818
2015-02-18,3.25,3.15,3.2,3.18,127900.0,2.82599
2015-02-26,3.04,2.89,2.96,2.89,214100.0,2.56828
2015-03-06,3.05,2.97,3.03,2.99,354400.0,2.65714
2015-03-16,2.81,2.72,2.81,2.74,341100.0,2.47653
2015-03-24,3.36,3.25,3.3,3.28,246600.0,2.9646
2015-04-01,3.75,3.55,3.55,3.7,238700.0,3.34422
2015-04-10,4.12,3.96,3.96,4.09,382300.0,3.69671
2015-04-20,4.44,4.25,4.28,4.33,224600.0,3.91364
2015-04-28,4.43,4.24,4.4,4.37,278500.0,3.94979
2015-05-06,4.67,4.5,4.62,4.57,294100.0,4.13056
2015-05-14,4.21,4.04,4.15,4.04,155300.0,3.65152
2015-05-22,4.26,4.08,4.17,4.12,198100.0,3.72383
2015-06-02,4.2,4.07,4.07,4.14,113200.0,3.74191
2015-06-10,4.26,4.11,4.24,4.16,161700.0,3.75998
2015-06-18,3.99,3.88,3.98,3.88,84700.0,3.54957
2015-06-26,4.1,4.02,4.02,4.03,67400.0,3.6868
2015-07-07,3.76,3.55,3.7,3.7,162800.0,3.3849
2015-07-15,3.66,3.5,3.55,3.59,87600.0,3.28427
2015-07-23,3.2,2.93,3.13,2.93,248100.0,2.68047
2015-07-31,3.08,2.91,2.99,2.96,160000.0,2.70792
2015-08-10,3.08,2.83,2.85,3.03,193600.0,2.77196
2015-08-18,2.96,2.8,2.81,2.83,79800.0,2.58899
2015-08-26,2.87,2.66,2.72,2.86,181800.0,2.61644
2015-09-03,2.93,2.74,2.85,2.8,248500.0,2.56155
2015-09-14,2.72,2.58,2.72,2.68,110100.0,2.49768
2015-09-22,2.9,2.71,2.72,2.89,73800.0,2.69339
2015-09-30,2.69,2.55,2.61,2.64,87300.0,2.4604
2015-10-08,3.07,2.87,2.95,3.06,183200.0,2.85183
2015-10-16,2.84,2.67,2.84,2.73,231000.0,2.54428
2015-10-26,2.67,2.56,2.67,2.56,230600.0,2.38584
2015-11-03,2.79,2.68,2.7,2.73,189900.0,2.54428
2015-11-11,2.68,2.49,2.68,2.49,219100.0,2.3206
2015-11-19,2.11,1.96,1.96,2.03,380400.0,1.8919
2015-11-30,2.06,1.95,1.99,2.02,642900.0,1.88258
2015-12-08,1.79,1.71,1.78,1.77,308000.0,1.64959
2015-12-16,1.63,1.51,1.62,1.55,447500.0,1.46611
2015-12-24,1.89,1.79,1.89,1.8,29700.0,1.70258
2016-01-05,1.79,1.75,1.76,1.76,30300.0,1.66475
2016-01-13,1.39,1.23,1.38,1.25,216400.0,1.18235
2016-01-22,1.24,1.15,1.17,1.22,329200.0,1.15397
2016-02-01,1.41,1.34,1.4,1.37,41400.0,1.29585
2016-02-09,1.26,1.18,1.19,1.21,126800.0,1.14451
2016-02-18,1.45,1.32,1.42,1.41,77500.0,1.33369
2016-02-26,1.53,1.43,1.53,1.44,110800.0,1.36207
2016-03-07,1.85,1.68,1.74,1.81,315500.0,1.71204
2016-03-15,1.65,1.6,1.65,1.62,79600.0,1.53232
2016-03-23,1.69,1.64,1.66,1.64,61800.0,1.55124
2016-04-01,1.7,1.62,1.62,1.69,44000.0,1.59854
2016-04-11,1.78,1.7,1.76,1.73,136700.0,1.63637
2016-04-19,1.93,1.81,1.81,1.91,102100.0,1.80663
2016-04-27,2.03,1.95,2.02,1.99,125000.0,1.8823
2016-05-05,1.92,1.84,1.92,1.86,59400.0,1.75934
2016-05-13,1.98,1.92,1.97,1.92,77200.0,1.81609
2016-05-23,1.83,1.7,1.75,1.78,81200.0,1.68367
2016-06-01,1.73,1.64,1.7,1.73,200000.0,1.63637
2016-06-09,1.86,1.77,1.79,1.83,66700.0,1.73096
2016-06-17,1.69,1.62,1.62,1.65,40000.0,1.5607
2016-06-27,1.8,1.65,1.8,1.75,68900.0,1.65529
2016-07-06,1.78,1.7,1.77,1.74,65600.0,1.64583
2016-07-14,1.82,1.75,1.76,1.82,29500.0,1.7215
2016-07-22,1.75,1.7,1.75,1.71,40300.0,1.61745
2016-08-01,1.7,1.61,1.63,1.67,46400.0,1.57962
2016-08-09,1.64,1.59,1.61,1.6,81700.0,1.51341
2016-08-17,2.06,1.91,1.95,2.0,157000.0,1.89176
2016-08-25,1.94,1.88,1.89,1.92,33500.0,1.81609
2016-09-02,1.93,1.87,1.91,1.9,32300.0,1.79717
2016-09-13,2.07,1.92,2.06,1.96,73600.0,1.85392
2016-09-21,2.02,1.95,1.97,2.01,77800.0,1.90122
2016-09-29,2.0,1.93,1.97,1.95,60200.0,1.84447
2016-10-07,2.14,2.02,2.1,2.04,34500.0,1.92959
2016-10-17,2.12,2.06,2.11,2.09,103000.0,1.97689
2016-10-25,1.96,1.85,1.96,1.93,130700.0,1.82555
2016-11-02,1.82,1.76,1.78,1.8,67000.0,1.70258
2016-11-10,1.87,1.78,1.82,1.81,47400.0,1.71204
2016-11-18,1.83,1.72,1.76,1.81,15500.0,1.71204
2016-11-29,1.77,1.68,1.75,1.7,109100.0,1.608
2016-12-07,1.76,1.67,1.7,1.7,203100.0,1.608
2016-12-15,1.74,1.63,1.7,1.65,213200.0,1.5607
2016-12-23,1.7,1.65,1.68,1.68,79100.0,1.58908
2017-01-04,1.86,1.79,1.81,1.84,130800.0,1.74042
2017-01-12,1.83,1.76,1.8,1.78,32200.0,1.68367
2017-01-23,1.74,1.7,1.72,1.71,71900.0,1.61745
2017-01-31,1.75,1.66,1.75,1.68,139100.0,1.58908
2017-02-08,1.75,1.65,1.68,1.66,56600.0,1.57016
2017-02-16,1.8,1.73,1.75,1.73,62700.0,1.63637
2017-02-27,1.68,1.64,1.67,1.68,65600.0,1.58908
2017-03-07,1.61,1.58,1.58,1.6,91600.0,1.51341
2017-03-15,1.56,1.5,1.5,1.55,196800.0,1.46611
2017-03-23,1.53,1.47,1.51,1.5,91100.0,1.41882
2017-03-31,1.61,1.56,1.58,1.56,150800.0,1.47557
2017-04-10,1.63,1.6,1.6,1.61,71300.0,1.52287
2017-04-19,1.54,1.5,1.54,1.5,44500.0,1.41882
2017-04-27,1.52,1.46,1.49,1.51,78400.0,1.42828
2017-05-05,1.41,1.37,1.37,1.4,42100.0,1.32423
2017-05-15,1.7,1.5,1.51,1.62,157800.0,1.53232
2017-05-23,1.64,1.51,1.64,1.57,77000.0,1.48503
2017-06-01,1.49,1.45,1.48,1.45,135900.0,1.37153
2017-06-09,1.4,1.35,1.36,1.37,61400.0,1.29585
2017-06-19,1.39,1.28,1.28,1.33,223200.0,1.25802
2017-06-27,1.33,1.27,1.32,1.28,30600.0,1.21073
2017-07-06,1.33,1.31,1.31,1.31,13300.0,1.2391
2017-07-14,1.34,1.32,1.34,1.32,9600.0,1.24856
2017-07-24,1.37,1.35,1.35,1.35,14500.0,1.27694
2017-08-01,1.36,1.33,1.35,1.34,6200.0,1.26748
2017-08-09,1.26,1.24,1.25,1.25,18700.0,1.18235
2017-08-17,1.24,1.2,1.24,1.2,67900.0,1.13506
2017-08-25,1.3,1.21,1.3,1.26,63200.0,1.19181
2017-09-05,1.33,1.28,1.3,1.3,34700.0,1.22964
2017-09-13,1.25,1.12,1.16,1.21,144800.0,1.14451
2017-09-21,1.23,1.15,1.15,1.21,169900.0,1.14451
2017-09-29,1.44,1.38,1.38,1.44,101500.0,1.36207
2017-10-09,1.55,1.46,1.52,1.51,58400.0,1.42828
2017-10-17,1.63,1.53,1.58,1.58,112700.0,1.49449
2017-10-25,1.58,1.54,1.57,1.54,19400.0,1.45665
2017-11-02,1.85,1.74,1.76,1.79,150300.0,1.69312
2017-11-10,1.53,1.49,1.5,1.5,54100.0,1.41882
2017-11-20,1.49,1.45,1.48,1.49,21500.0,1.40936
2017-11-29,1.46,1.38,1.46,1.44,107600.0,1.36207
2017-12-07,1.38,1.34,1.37,1.36,34200.0,1.2864
2017-12-15,1.33,1.3,1.32,1.32,44600.0,1.24856
2017-12-26,1.37,1.33,1.34,1.34,61000.0,1.26748
2018-01-04,1.44,1.4,1.44,1.44,77800.0,1.36207
2018-01-12,1.49,1.45,1.49,1.47,138000.0,1.39044
2018-01-23,1.49,1.44,1.46,1.45,49000.0,1.37153
2018-01-31,1.48,1.38,1.4,1.47,118600.0,1.39044
2018-02-08,1.38,1.29,1.37,1.3,124000.0,1.22964
2018-02-16,1.35,1.3,1.3,1.32,39700.0,1.24856
2018-02-27,1.35,1.27,1.31,1.27,92600.0,1.20127
2018-03-07,1.32,1.27,1.3,1.28,64900.0,1.21073
2018-03-15,1.35,1.31,1.33,1.35,19100.0,1.27694
2018-03-23,1.46,1.42,1.46,1.45,33200.0,1.37153
2018-04-03,1.34,1.31,1.34,1.32,17400.0,1.24856
2018-04-11,1.34,1.29,1.29,1.32,91800.0,1.24856
2018-04-19,1.48,1.4,1.4,1.47,54600.0,1.39044
2018-04-27,1.75,1.63,1.74,1.65,241500.0,1.5607
2018-05-07,2.01,1.88,1.88,1.96,243600.0,1.85392
2018-05-15,2.02,1.9,1.93,1.95,367500.0,1.84447
2018-05-23,2.49,2.2,2.21,2.44,686800.0,2.30795
2018-06-01,2.58,2.43,2.56,2.47,415800.0,2.33632
2018-06-11,2.42,2.3,2.39,2.37,482500.0,2.24173
2018-06-19,2.41,2.27,2.34,2.38,239500.0,2.25119
2018-06-27,2.68,2.44,2.44,2.63,920900.0,2.48766
2018-07-06,2.95,2.86,2.94,2.94,503500.0,2.78089
2018-07-16,4.0,3.67,4.0,3.77,1696900.0,3.56597
2018-07-24,3.53,3.37,3.37,3.37,685000.0,3.18761
2018-08-01,3.3,3.13,3.24,3.24,330400.0,3.06465
2018-08-09,3.24,3.13,3.21,3.21,209200.0,3.03627
2018-08-17,3.22,3.07,3.09,3.12,647200.0,2.95114
2018-08-27,3.53,3.42,3.49,3.47,231800.0,3.2822
2018-09-05,3.37,3.19,3.3,3.3,448500.0,3.1533
2018-09-13,3.7,3.54,3.56,3.57,237800.0,3.4113
2018-09-21,3.36,3.23,3.31,3.32,286300.0,3.17241
2018-10-01,3.57,3.35,3.35,3.52,466200.0,3.36352
2018-10-09,3.41,3.14,3.21,3.35,157100.0,3.20108
2018-10-17,3.13,3.01,3.11,3.09,230100.0,2.95264
2018-10-25,2.5,2.27,2.38,2.45,526100.0,2.34109
2018-11-02,2.48,2.31,2.46,2.36,218000.0,2.25509
2018-11-12,2.2,2.05,2.16,2.11,279500.0,2.0162
2018-11-20,2.3,2.08,2.26,2.14,271700.0,2.04487
2018-11-29,2.19,2.0,2.08,2.17,175700.0,2.07353
2018-12-10,1.98,1.8,1.98,1.81,350900.0,1.72954
2018-12-18,1.78,1.7,1.78,1.71,187600.0,1.63398
2018-12-27,1.68,1.58,1.62,1.68,116300.0,1.60532
2019-01-07,2.13,1.93,1.93,2.07,182600.0,1.97798
2019-01-15,2.01,1.94,1.96,1.96,55200.0,1.87287
2019-01-24,1.86,1.76,1.76,1.79,96800.0,1.71043
2019-02-01,1.99,1.82,1.82,1.93,101700.0,1.8442
2019-02-11,1.86,1.8,1.83,1.85,50600.0,1.76776
2019-02-20,2.19,1.97,2.14,2.01,96700.0,1.92065
2019-02-28,2.05,1.98,2.03,1.98,72500.0,1.89198
2019-03-08,2.06,1.98,2.02,2.02,59000.0,1.9302
2019-03-18,2.19,2.07,2.07,2.17,131100.0,2.07353
2019-03-26,1.9,1.72,1.87,1.75,448300.0,1.6722
2019-04-03,1.87,1.79,1.87,1.8,76700.0,1.75333
2019-04-11,1.97,1.86,1.88,1.88,88100.0,1.83126
2019-04-22,2.01,1.9,1.9,1.95,134900.0,1.89944
2019-04-30,1.97,1.92,1.95,1.95,58200.0,1.89944
2019-05-08,1.86,1.82,1.82,1.82,60700.0,1.77281
2019-05-16,1.79,1.75,1.76,1.76,70200.0,1.71437
2019-05-24,1.59,1.49,1.52,1.51,135500.0,1.47085
2019-06-04,1.55,1.49,1.53,1.54,64800.0,1.50007
2019-06-12,1.5,1.4,1.47,1.42,141900.0,1.38319
2019-06-20,1.47,1.41,1.42,1.45,250900.0,1.41241
2019-06-28,1.42,1.39,1.42,1.39,56200.0,1.35396
2019-07-09,1.38,1.34,1.35,1.37,101700.0,1.33448
2019-07-17,1.47,1.43,1.47,1.43,175400.0,1.39293
2019-07-25,1.47,1.41,1.47,1.41,44800.0,1.37344
2019-08-02,1.55,1.45,1.52,1.46,98200.0,1.42215
2019-08-12,1.48,1.4,1.42,1.48,124200.0,1.44163
2019-08-20,1.46,1.4,1.45,1.42,52300.0,1.38319
2019-08-28,1.36,1.34,1.34,1.35,99900.0,1.315
2019-09-06,1.43,1.35,1.37,1.4,68300.0,1.4
2019-09-16,1.6,1.49,1.5,1.52,382500.0,1.52
2019-09-24,1.43,1.38,1.41,1.39,107400.0,1.39
2019-10-02,1.32,1.26,1.31,1.28,233300.0,1.28
2019-10-10,1.31,1.25,1.31,1.27,240400.0,1.27
2019-10-18,1.29,1.24,1.27,1.25,110800.0,1.25
2019-10-28,1.22,1.19,1.2,1.2,139000.0,1.2
2019-11-05,1.28,1.23,1.24,1.26,110900.0,1.26
2019-11-13,1.18,1.16,1.18,1.17,52400.0,1.17
2019-11-21,1.17,1.14,1.15,1.14,103500.0,1.14
2019-12-02,1.17,1.07,1.11,1.12,163700.0,1.12
2019-12-10,1.2,1.16,1.19,1.19,99400.0,1.19
2019-12-18,1.32,1.24,1.28,1.3,115400.0,1.3
2019-12-27,1.47,1.43,1.43,1.43,134400.0,1.43
2020-01-07,1.42,1.39,1.4,1.4,105000.0,1.4
2020-01-15,1.4,1.34,1.4,1.36,78500.0,1.36
2020-01-24,1.36,1.26,1.29,1.27,123900.0,1.27
2020-02-03,1.28,1.22,1.28,1.25,79300.0,1.25
2020-02-11,1.26,1.23,1.26,1.23,64500.0,1.23
2020-02-20,1.24,1.2,1.22,1.22,88600.0,1.22
2020-02-28,1.09,1.01,1.01,1.09,307200.0,1.09
2020-03-09,0.8,0.64,0.8,0.69,884200.0,0.69
2020-03-17,0.51,0.41,0.51,0.46,52300.0,0.46
2020-03-25,0.53,0.4,0.43,0.47,590200.0,0.47
2020-04-02,0.41,0.34,0.35,0.39,566700.0,0.39
2020-04-13,0.5,0.42,0.49,0.43,199900.0,0.43
2020-04-21,0.43,0.38,0.43,0.42,73700.0,0.42
2020-04-29,0.58,0.47,0.48,0.56,347600.0,0.56
2020-05-07,0.59,0.54,0.55,0.55,70500.0,0.55
2020-05-15,0.5,0.45,0.47,0.5,91000.0,0.5
2020-05-26,0.57,0.51,0.52,0.56,183000.0,0.56
2020-06-03,0.56,0.5,0.52,0.54,166400.0,0.54
2020-06-11,0.6,0.54,0.56,0.57,164300.0,0.57
2020-06-19,0.59,0.55,0.56,0.55,196300.0,0.55
2020-06-29,0.59,0.53,0.57,0.56,142600.0,0.56
2020-07-08,0.64,0.6,0.64,0.63,140600.0,0.63
2020-07-16,0.61,0.59,0.6,0.6,46100.0,0.6
2020-07-24,0.6,0.57,0.6,0.59,114600.0,0.59
2020-08-03,0.58,0.56,0.57,0.57,96000.0,0.57
2020-08-11,0.63,0.58,0.62,0.61,108600.0,0.61
2020-08-19,0.6,0.56,0.6,0.6,277100.0,0.6
2020-08-27,0.58,0.53,0.58,0.55,249300.0,0.55
2020-09-04,0.54,0.49,0.52,0.5,191800.0,0.5
2020-09-15,0.5,0.46,0.46,0.46,122500.0,0.46
2020-09-23,0.42,0.38,0.41,0.41,633600.0,0.41
2020-10-01,0.41,0.38,0.41,0.4,124600.0,0.4
2020-10-09,0.52,0.44,0.52,0.48,438100.0,0.48
2020-10-19,0.48,0.44,0.46,0.44,93900.0,0.44
2020-10-27,0.42,0.4,0.41,0.4,122300.0,0.4
2020-11-04,0.43,0.4,0.43,0.41,41900.0,0.41
2020-11-12,0.44,0.42,0.44,0.43,65000.0,0.43
2020-11-20,0.48,0.46,0.47,0.47,145800.0,0.47
2020-12-01,0.53,0.49,0.53,0.5,167200.0,0.5
2020-12-09,0.95,0.88,0.95,0.94,797100.0,0.94
2020-12-17,0.98,0.92,0.95,0.95,264000.0,0.95
2020-12-28,1.01,0.92,1.01,0.95,241200.0,0.95
2021-01-06,1.05,0.94,0.96,0.99,507000.0,0.99
2021-01-14,1.19,1.12,1.16,1.18,639600.0,1.18
2021-01-25,1.12,1.04,1.12,1.08,298200.0,1.08
2021-02-02,1.16,1.07,1.07,1.13,468600.0,1.13
2021-02-10,1.45,1.26,1.35,1.39,976500.0,1.39
2021-02-19,1.39,1.3,1.38,1.38,252300.0,1.38
2021-03-01,1.58,1.46,1.51,1.5,506400.0,1.5
2021-03-09,1.57,1.5,1.56,1.55,257200.0,1.55
2021-03-17,1.8,1.69,1.8,1.7,377200.0,1.7
2021-03-25,1.62,1.45,1.62,1.6,291300.0,1.6
2021-04-05,1.66,1.53,1.66,1.55,498800.0,1.55
2021-04-13,1.51,1.43,1.46,1.47,331500.0,1.47
2021-04-21,1.53,1.47,1.47,1.5,99300.0,1.5
2021-04-29,1.68,1.57,1.59,1.65,209200.0,1.65
2021-05-07,1.61,1.5,1.6,1.56,486400.0,1.56
2021-05-17,1.7,1.54,1.54,1.66,249500.0,1.66
2021-05-25,1.8,1.69,1.8,1.71,247600.0,1.71
2021-06-03,1.95,1.82,1.84,1.9,461800.0,1.9
2021-06-11,1.91,1.85,1.9,1.88,304500.0,1.88
2021-06-21,1.97,1.83,1.85,1.9,322500.0,1.9
2021-06-29,2.08,1.91,1.96,1.93,473200.0,1.93
2021-07-08,1.83,1.72,1.78,1.77,298600.0,1.77
2021-07-16,1.75,1.6,1.7,1.62,378200.0,1.62
2021-07-26,1.77,1.67,1.69,1.7,108100.0,1.7
2021-08-03,1.67,1.59,1.59,1.65,130300.0,1.65
2021-08-11,1.75,1.64,1.71,1.73,165200.0,1.73
2021-08-19,1.59,1.49,1.55,1.55,320900.0,1.55
2021-08-27,1.85,1.78,1.78,1.81,177000.0,1.81
2021-09-07,1.91,1.78,1.91,1.82,120900.0,1.82
2021-09-15,1.95,1.81,1.85,1.95,272300.0,1.95
2021-09-23,2.1,1.98,1.99,2.07,251400.0,2.07
2021-10-01,2.42,2.2,2.22,2.28,687200.0,2.28
2021-10-11,3.42,3.06,3.16,3.19,1798500.0,3.19
2021-10-19,2.61,2.43,2.57,2.51,693800.0,2.51
2021-10-25,2.83,2.69,2.71,2.82,560500.0,2.82